! Analog Devices, Inc.
! Device:	HMC952ALP5GE
! Description:	8 GHz to 14 GHz, GaAs, pHEMT, MMIC, 2 WATT Power Amplifier
! Conditions:	Vdd1, Vdd2, Vdd3, Vdd4 = +6V, Idd = 1400 mA
!		Vgg = Adjust Vgg between -2 to 0V to achieve Idd = 1400 mA typical.
!		Idd = 1400 mA quiescent 
!		Pin = -25 dBm
!		Temp = +25 C (baseplate temperature)       
! Product validation unit (SN 4). as shown on data sheet's Assembly Diagram, calibration plane at sma connectors)
! Freq(GHz)	S11a(dB)	S11p(deg)	S21a(dB)	S21p(deg)	S12a(dB)	S12p(deg)	S22a(dB)	S22p(deg)
# GHz S DB R 50
0.1	-2.921	171.691	-83.055	-62.238	-75.176	161.255	-0.355	-8.654
0.19975	-2.953	163.601	-75.51	172.655	-91.179	151.819	-0.361	-17.231
0.2995	-2.979	155.603	-68.738	153.391	-84.817	151.553	-0.363	-25.795
0.39925	-2.999	147.643	-62.486	76.889	-84.767	158.965	-0.372	-34.416
0.499	-3.016	139.723	-67.343	41.207	-87.628	-129.927	-0.378	-42.988
0.59875	-3.029	131.891	-61.473	16.302	-97.896	104.559	-0.391	-51.633
0.6985	-3.043	124.004	-60.11	-19.322	-90.433	3.283	-0.403	-60.304
0.79825	-3.058	116.176	-59.122	-48.998	-87.246	-141.113	-0.429	-68.991
0.898	-3.067	108.356	-58.468	-81.496	-83.762	83.873	-0.449	-77.604
0.99775	-3.08	100.552	-57.325	-110.548	-80.756	152.291	-0.472	-86.2
1.0975	-3.092	92.745	-57.239	-144.285	-77.123	110.79	-0.492	-94.914
1.19725	-3.107	85.021	-57.68	-177.339	-80.283	94.917	-0.512	-103.59
1.297	-3.114	77.263	-59.054	156.752	-78.505	79.117	-0.527	-112.371
1.39675	-3.125	69.544	-61.231	129.311	-73.79	59.166	-0.546	-121.117
1.4965	-3.141	61.831	-62.388	115.335	-76.259	58.188	-0.55	-129.958
1.59625	-3.163	54.202	-63.82	97.183	-76.705	64.064	-0.569	-138.833
1.696	-3.177	46.522	-63.809	80.534	-75.955	35.632	-0.581	-147.621
1.79575	-3.199	38.795	-63.709	66.458	-72.145	46.269	-0.595	-156.497
1.8955	-3.23	31.142	-64.736	57.777	-73.653	45.763	-0.606	-165.365
1.99525	-3.258	23.46	-67.214	47.528	-73.691	26.908	-0.617	-174.355
2.095	-3.292	15.823	-65.112	29.714	-71.251	-5.834	-0.633	176.761
2.19475	-3.329	8.107	-65.05	9.382	-70.69	-2.478	-0.642	167.808
2.2945	-3.369	0.526	-65.202	0.56	-71.825	3.579	-0.651	158.85
2.39425	-3.419	-7.237	-64.336	-8.572	-72.073	-2.307	-0.664	149.883
2.494	-3.462	-14.882	-63.115	-15.686	-71.125	-27.537	-0.669	140.921
2.59375	-3.515	-22.632	-61.446	-23.547	-73.36	-24.865	-0.686	131.964
2.6935	-3.566	-30.336	-59.651	-31.633	-69.799	-36.165	-0.693	122.989
2.79325	-3.626	-38.055	-56.781	-45.429	-68.445	-45.091	-0.705	113.932
2.893	-3.686	-45.781	-53.946	-64.554	-70.862	-46.409	-0.721	104.915
2.99275	-3.747	-53.519	-51.18	-76.624	-70.315	-55.452	-0.741	95.934
3.0925	-3.808	-61.304	-48.152	-91.899	-67.123	-66.462	-0.77	86.853
3.19225	-3.872	-69.082	-45.682	-108.182	-68.769	-68.159	-0.795	77.79
3.292	-3.937	-76.862	-43.24	-119.864	-68.86	-86.448	-0.831	68.768
3.39175	-3.999	-84.659	-40.867	-131.104	-67.214	-90.529	-0.885	59.672
3.4915	-4.058	-92.53	-38.246	-139.142	-65.574	-119.78	-0.933	50.553
3.59125	-4.114	-100.399	-34.996	-145.431	-66.311	-111.793	-1.018	41.485
3.691	-4.168	-108.33	-30.968	-154.147	-65.704	-132.635	-1.115	32.761
3.79075	-4.216	-116.288	-26.776	-165.962	-66.234	-129.513	-1.154	23.581
3.8905	-4.263	-124.345	-22.516	178.306	-66.305	-138.614	-1.242	14.415
3.99025	-4.307	-132.408	-18.434	159.996	-66.221	-145.882	-1.349	5.299
4.09	-4.34	-140.568	-14.505	139.757	-65.551	-152.865	-1.465	-3.659
4.18975	-4.379	-148.761	-10.749	117.716	-63.851	-159.746	-1.584	-12.724
4.2895	-4.422	-156.966	-7.191	94.279	-64.482	-165.602	-1.715	-21.659
4.38925	-4.45	-165.313	-3.825	69.437	-65.117	-173.754	-1.848	-30.692
4.489	-4.489	-173.579	-0.679	43.321	-65.069	171.064	-1.994	-39.705
4.58875	-4.518	178.088	2.212	15.792	-65.388	160.282	-2.142	-48.644
4.6885	-4.544	169.699	4.789	-12.371	-64.142	166.083	-2.285	-57.597
4.78825	-4.581	161.266	7.072	-40.852	-63.822	152.052	-2.424	-66.483
4.888	-4.622	152.8	9.055	-69.578	-63.428	146.572	-2.56	-75.447
4.98775	-4.664	144.503	10.76	-97.859	-62.855	129.928	-2.685	-84.582
5.0875	-4.706	136.038	12.221	-125.594	-63.151	111.842	-2.81	-93.631
5.18725	-4.744	127.636	13.48	-152.571	-63.61	109.905	-2.942	-102.817
5.287	-4.79	119.249	14.594	-178.66	-63.958	98.459	-3.081	-112.204
5.38675	-4.834	110.944	15.618	156.18	-62.973	100.191	-3.214	-121.453
5.4865	-4.892	102.654	16.552	131.76	-63.114	87.895	-3.366	-130.911
5.58625	-4.944	94.327	17.437	107.861	-63.52	78.354	-3.52	-140.467
5.686	-4.999	86.073	18.295	84.519	-63.418	67.737	-3.677	-150.052
5.78575	-5.064	77.917	19.112	61.629	-63.369	59.746	-3.844	-159.631
5.8855	-5.132	69.762	19.894	39.088	-63.063	57.4	-4	-169.381
5.98525	-5.195	61.671	20.662	16.917	-62.586	46.374	-4.205	-179.134
6.085	-5.254	53.616	21.437	-4.771	-63.781	35.376	-4.353	171.848
6.18475	-5.327	45.596	22.198	-26.605	-64.186	29.129	-4.431	161.993
6.2845	-5.407	37.6	22.928	-48.277	-64.087	25.093	-4.541	151.869
6.38425	-5.495	29.578	23.646	-69.887	-64.735	13.212	-4.666	141.58
6.484	-5.59	21.666	24.329	-91.348	-64.004	7.186	-4.804	131.209
6.58375	-5.692	13.693	24.991	-112.879	-64.353	-0.704	-4.96	120.623
6.6835	-5.802	5.78	25.65	-134.338	-64.259	-7.795	-5.123	110.017
6.78325	-5.908	-2.161	26.272	-155.824	-63.882	-13.881	-5.311	99.105
6.883	-6.063	-10.016	26.853	-177.345	-63.978	-25.77	-5.522	88.203
6.98275	-6.222	-17.734	27.363	161.292	-65.064	-37.658	-5.768	77.126
7.0825	-6.378	-25.458	27.863	139.765	-65.239	-43.235	-6.061	65.771
7.18225	-6.53	-32.927	28.332	118.524	-66.049	-58.312	-6.425	54.499
7.282	-6.665	-40.355	28.744	97.434	-66.12	-58.559	-6.846	43.262
7.38175	-6.784	-48.036	29.11	76.275	-65.104	-60.467	-7.334	32.144
7.4815	-6.909	-55.907	29.448	55.285	-65.89	-73.619	-7.878	21.133
7.58125	-7.055	-63.934	29.78	34.343	-65.295	-75.337	-8.484	10.119
7.681	-7.226	-72.145	30.045	13.667	-65.811	-89.072	-9.198	-0.776
7.78075	-7.408	-80.127	30.268	-6.811	-66.285	-95.503	-10.049	-11.327
7.8805	-7.589	-88.489	30.491	-27.199	-66.018	-102.002	-10.992	-21.177
7.98025	-7.8	-96.976	30.687	-47.179	-67.22	-114.408	-12.004	-30.588
8.08	-8.029	-105.726	30.863	-67.217	-68.305	-128.551	-13.107	-39.767
8.17975	-8.319	-114.45	31.01	-87.027	-67.14	-138.448	-14.281	-48.332
8.2795	-8.601	-123.119	31.162	-106.688	-67.332	-137.118	-15.671	-56.334
8.37925	-8.901	-131.826	31.286	-126.041	-67.82	-153.01	-17.195	-63.724
8.479	-9.178	-140.978	31.43	-145.371	-70.821	-150.343	-18.812	-69.821
8.57875	-9.51	-150.326	31.536	-164.808	-69.143	-159.33	-20.75	-75.792
8.6785	-9.894	-159.553	31.636	176.032	-67.231	-173.167	-23.03	-80.801
8.77825	-10.164	-168.74	31.732	157.15	-69.417	178.172	-26.219	-78.628
8.878	-10.457	-179.073	31.86	138.137	-68.716	171.291	-29.274	-67.718
8.97775	-10.873	170.216	31.963	119.319	-69.893	171.748	-31.384	-45.191
9.0775	-11.343	159.662	32.064	100.543	-71.101	165.03	-30.633	-20.23
9.17725	-11.835	148.884	32.168	81.515	-69.834	143.12	-28.417	-6.829
9.277	-12.383	138.054	32.248	62.815	-70.125	149.617	-26.378	-0.919
9.37675	-12.88	127.408	32.356	44.181	-71.316	163.762	-24.294	0.984
9.4765	-13.409	116.618	32.464	25.145	-70.242	142.808	-22.441	-1.628
9.57625	-13.889	104.823	32.529	6.099	-71.446	144.171	-20.889	-6.503
9.676	-14.433	93.274	32.564	-12.725	-68.215	124.526	-19.598	-12.888
9.77575	-14.992	80.959	32.588	-31.41	-68.869	114.829	-18.569	-20.679
9.8755	-15.543	68.734	32.635	-50.135	-67.645	103.368	-17.915	-27.434
9.97525	-16.157	56.79	32.652	-68.697	-69.068	106.567	-17.114	-36.778
10.075	-16.727	43.192	32.655	-87.413	-67.408	101.026	-16.572	-44.04
10.17475	-17.453	30.333	32.63	-106.039	-69.005	54.626	-15.931	-51.982
10.2745	-18.369	17.511	32.607	-124.418	-69.953	52.876	-15.459	-60.719
10.37425	-19.208	5.921	32.552	-142.493	-73.02	62.303	-14.973	-69.6
10.474	-19.999	-7.376	32.508	-160.553	-72.644	58.97	-14.589	-78.91
10.57375	-21.176	-20.153	32.505	-178.638	-73.88	54.202	-14.297	-88.233
10.6735	-22.394	-31.288	32.478	163.322	-70.064	51.855	-13.929	-98.315
10.77325	-23.564	-40.479	32.444	145.553	-69.629	45.897	-13.604	-108.617
10.873	-24.293	-51.383	32.466	127.546	-70.817	42.185	-13.373	-120.122
10.97275	-24.909	-65.419	32.472	109.552	-70.035	32.68	-13.231	-131.395
11.0725	-25.949	-84.985	32.455	91.428	-69.553	17.681	-13.197	-142.998
11.17225	-27.646	-107.216	32.403	73.35	-71.003	16.684	-13.26	-153.802
11.271999	-29.438	-132.316	32.4	55.598	-69.329	5.869	-13.212	-163.558
11.37175	-30.899	-166.7	32.443	37.569	-70.272	-10.452	-13.017	-174.378
11.4715	-31.929	156.158	32.443	19.398	-68.892	-13.107	-12.86	174.193
11.57125	-32.209	123.379	32.422	1.125	-69.699	-31.374	-12.779	162.042
11.671	-31.689	106.006	32.434	-17.021	-68.234	-43.237	-12.897	150.155
11.77075	-28.633	91.683	32.444	-35.398	-70.233	-64.292	-13.026	139.108
11.8705	-26.262	67.759	32.4	-53.502	-73.165	-85.546	-13.078	129.33
11.97025	-25.911	44.564	32.462	-71.357	-81.026	-76.668	-12.877	119.424
12.07	-25.91	33.746	32.582	-90.377	-76.364	-21.792	-12.66	107.539
12.16975	-25.353	23.852	32.586	-109.611	-75.564	30.418	-12.652	95.838
12.2695	-24.62	16.258	32.544	-128.742	-70.743	-14.217	-12.68	83.738
12.36925	-23.539	6.569	32.495	-147.66	-70.244	-24.779	-12.74	72.169
12.469	-22.933	-6.842	32.461	-166.69	-72.738	-31.641	-12.77	60.704
12.56875	-22.551	-19.07	32.423	173.983	-68.868	-19.048	-12.751	49.007
12.6685	-22.521	-29.76	32.342	154.501	-68.651	-46.601	-12.814	36.631
12.76825	-22.452	-40.475	32.248	134.957	-67.728	-45.253	-12.908	24.356
12.868	-22.686	-51.556	32.117	115.384	-67.4	-59.17	-13.038	11.74
12.96775	-23.025	-61.999	31.969	95.801	-65.256	-66.518	-13.228	-1.287
13.0675	-23.32	-71.754	31.799	76.048	-65.52	-72.494	-13.44	-15.094
13.16725	-23.741	-83.478	31.604	56.284	-62.82	-86.712	-13.799	-29.584
13.267	-24.449	-96.938	31.359	36.578	-63.155	-102.378	-14.327	-44.505
13.36675	-25.279	-110.585	31.086	16.899	-61.07	-110.699	-14.951	-59.764
13.4665	-26.361	-129.415	30.792	-2.504	-59.822	-122.597	-15.662	-75.344
13.56625	-27.177	-154.577	30.52	-21.745	-59.611	-130.559	-16.479	-91.589
13.666	-27.771	171.727	30.282	-40.804	-59.478	-137.835	-17.417	-107.789
13.76575	-26.479	133.456	30.114	-59.886	-59.182	-161.165	-18.301	-123.837
13.8655	-23.756	98.353	30.025	-79.521	-58.13	-176.506	-18.615	-138.109
13.96525	-21.136	68.624	29.927	-100.279	-58.095	165.563	-17.905	-155.221
14.065	-19.041	43.794	29.703	-121.693	-58.083	148.526	-16.774	-177.022
14.16475	-17.552	23.006	29.344	-142.455	-59.567	137.827	-15.539	159.17
14.2645	-16.595	5.33	29.117	-162.717	-61.126	122.137	-14.546	137.112
14.36425	-16.02	-8.064	29.03	175.742	-62.283	113.494	-13.28	117.485
14.464	-15.408	-18.695	28.834	152.72	-61.718	115.59	-11.931	98.736
14.56375	-14.691	-27.968	28.481	129.077	-62.342	100.136	-10.687	81.114
14.6635	-13.948	-36.84	28.012	104.982	-62.861	83.552	-9.51	63.965
14.76325	-13.145	-45.41	27.389	80.434	-64.639	71.415	-8.492	47.893
14.863	-12.359	-53.615	26.62	55.861	-66.014	65.236	-7.59	32.382
14.96275	-11.518	-62.293	25.679	31.324	-67.378	66.501	-6.796	17.85
15.0625	-10.706	-71.519	24.599	6.792	-67.139	54.798	-6.115	3.746
15.16225	-10.005	-80.903	23.379	-17.305	-70.224	60.305	-5.501	-9.789
15.262	-9.351	-90.322	22.045	-41.212	-68.734	38.648	-4.989	-22.551
15.36175	-8.805	-99.844	20.577	-64.82	-67.973	18.183	-4.55	-35.128
15.4615	-8.258	-109.33	18.943	-88.043	-78.076	-15.621	-4.142	-47.133
15.56125	-7.826	-118.868	17.203	-110.373	-79.425	107.945	-3.794	-58.577
15.661	-7.448	-128.253	15.363	-132.169	-79.472	102.991	-3.501	-69.989
15.76075	-7.112	-137.439	13.392	-153.238	-71.097	130.959	-3.226	-81.133
15.8605	-6.805	-146.457	11.36	-173.339	-68.581	90.214	-3.022	-91.591
15.96025	-6.544	-155.424	9.258	167.085	-68.244	74.418	-2.834	-102.475
16.06	-6.286	-164.333	7.102	148.449	-65.562	74.495	-2.687	-112.794
16.15975	-6.048	-173.131	4.882	130.645	-64.993	66.513	-2.574	-122.828
16.2595	-5.835	178.171	2.634	113.434	-64.999	50.324	-2.479	-133.071
16.35925	-5.637	169.575	0.326	97.016	-65.329	45.219	-2.388	-142.822
16.459	-5.441	160.886	-2.029	81.217	-65.452	36.987	-2.343	-152.53
16.55875	-5.251	152.379	-4.473	66.335	-64.668	27.083	-2.295	-162.234
16.6585	-5.063	143.836	-6.981	52.456	-64.687	12.729	-2.26	-171.852
16.75825	-4.882	135.417	-9.469	39.81	-64.913	7.222	-2.235	178.822
16.858	-4.684	126.934	-12.017	26.44	-64.064	10.112	-2.195	169.339
16.95775	-4.505	118.34	-15.026	14.052	-64.263	-7.851	-2.153	159.967
17.0575	-4.324	109.682	-18.401	4.635	-63.95	-14.547	-2.117	150.474
17.15725	-4.148	101.121	-22.191	-0.193	-63.459	-29.691	-2.084	140.99
17.257001	-3.976	92.399	-26.242	4.515	-64.828	-37.795	-2.058	131.506
17.356751	-3.819	83.688	-28.995	23.485	-66.036	-34.514	-2.037	121.888
17.456501	-3.657	74.907	-28.542	43.105	-65.675	-36.297	-2.014	112.34
17.556251	-3.5	66.043	-26.715	48.602	-64.688	-36.928	-2.003	102.714
17.656001	-3.362	57.337	-25.045	43.81	-63.176	-47.7	-1.975	93.099
17.75575	-3.229	48.411	-23.947	33.874	-61.882	-58.005	-1.946	83.468
17.8555	-3.105	39.492	-23.331	22.027	-62.005	-69.074	-1.933	73.77
17.95525	-2.996	30.528	-23.041	9.777	-62.123	-77.769	-1.914	63.987
18.055	-2.892	21.513	-22.933	-3.115	-62.355	-94.094	-1.897	54.273
18.15475	-2.797	12.581	-22.966	-16.096	-62.947	-93.524	-1.879	44.464
18.2545	-2.712	3.677	-23.102	-29.263	-62.9	-109.189	-1.869	34.74
18.35425	-2.638	-5.221	-23.346	-42.425	-61.901	-117.712	-1.859	25.025
18.454	-2.571	-14.045	-23.643	-55.65	-63.36	-119.326	-1.856	15.314
18.55375	-2.506	-22.883	-24.025	-68.652	-62.456	-124.098	-1.852	5.704
18.653499	-2.444	-31.738	-24.435	-82.008	-61.222	-124.993	-1.856	-3.869
18.753249	-2.384	-40.442	-24.92	-95.02	-61.902	-144.499	-1.843	-13.348
18.852999	-2.339	-48.986	-25.422	-107.807	-61.732	-154.42	-1.834	-22.793
18.952749	-2.284	-57.698	-25.952	-120.562	-62.961	-166.175	-1.847	-32.178
19.052501	-2.242	-66.172	-26.48	-133.066	-61.37	-174.318	-1.844	-41.306
19.152251	-2.212	-74.785	-26.996	-145.724	-63.082	171.212	-1.842	-50.513
19.252001	-2.166	-83.15	-27.517	-158.267	-62.215	165.308	-1.841	-59.532
19.351751	-2.134	-91.482	-28.046	-170.844	-64.258	154.895	-1.844	-68.471
19.451501	-2.094	-99.811	-28.581	176.643	-63.153	146.159	-1.856	-77.394
19.55125	-2.058	-107.97	-29.156	164.029	-63.437	139.38	-1.859	-86.043
19.651	-2.018	-116.178	-29.69	151.265	-64.9	130.542	-1.858	-94.873
19.75075	-1.989	-124.22	-30.334	138.834	-65.333	128.04	-1.872	-103.497
19.8505	-1.951	-132.244	-30.943	126.773	-62.853	130.593	-1.872	-111.977
19.95025	-1.918	-140.19	-31.52	114.86	-63.86	103.402	-1.864	-120.424
20.05	-1.895	-148.095	-32.059	102.87	-63.876	96.027	-1.859	-128.897
20.14975	-1.861	-156.004	-32.648	90.638	-65.24	101.118	-1.847	-137.385
20.2495	-1.832	-163.755	-33.232	78.821	-66.119	78.864	-1.848	-145.726
20.34925	-1.796	-171.464	-33.819	66.59	-66.428	67.829	-1.853	-154.089
20.448999	-1.773	-179.11	-34.439	55.194	-66.396	64.425	-1.845	-162.399
20.548749	-1.735	173.398	-34.9	43.84	-65.787	69.968	-1.844	-170.682
20.648499	-1.702	165.758	-35.401	32.088	-66.328	53.893	-1.842	-178.936
20.748249	-1.681	158.353	-35.858	20.36	-67.301	55.882	-1.846	172.983
20.848001	-1.653	150.987	-36.353	8.563	-65.369	52.812	-1.84	164.655
20.947751	-1.622	143.659	-36.794	-2.873	-66.492	27.537	-1.844	156.557
21.047501	-1.594	136.388	-37.3	-14.442	-65.407	21.613	-1.852	148.451
21.147251	-1.583	129.214	-37.616	-26.646	-65.781	18.694	-1.857	140.369
21.247001	-1.554	122.001	-38.081	-39.151	-66.235	-5.248	-1.86	132.166
21.34675	-1.532	114.922	-38.562	-51.181	-64.147	-20.755	-1.879	124.135
21.4465	-1.518	107.902	-38.894	-63.354	-67.187	-18.276	-1.886	116.03
21.54625	-1.5	100.738	-39.352	-75.826	-68.65	-31.25	-1.905	108.05
21.646	-1.474	93.751	-39.672	-88.444	-64.763	-42.626	-1.925	99.783
21.74575	-1.474	86.887	-39.988	-100.157	-65.335	-53.17	-1.958	91.786
21.8455	-1.464	79.818	-40.356	-112.987	-65.61	-67.47	-1.988	83.672
21.94525	-1.452	72.885	-40.726	-125.535	-64.663	-82.175	-2.028	75.488
22.045	-1.451	65.966	-41.015	-138.413	-63.557	-107.214	-2.062	67.35
22.14475	-1.449	59.028	-41.364	-151.274	-63.278	-107.411	-2.095	59.15
22.244499	-1.448	52.105	-41.688	-165.247	-63.849	-130.701	-2.143	50.922
22.344249	-1.434	45.205	-41.975	-178.224	-65.206	-135.439	-2.193	42.612
22.443999	-1.428	38.268	-42.372	167.829	-62.491	-155.834	-2.24	34.214
22.543749	-1.427	31.348	-42.662	155.347	-61.638	-160.552	-2.295	25.734
22.643499	-1.426	24.47	-43.101	140.854	-62.81	177.941	-2.357	17.198
22.743251	-1.424	17.516	-43.326	127.406	-62.859	174.158	-2.407	8.53
22.843001	-1.418	10.448	-43.631	114.014	-60.472	154.536	-2.457	-0.384
22.942751	-1.43	3.552	-44.098	99.917	-59.945	139.185	-2.522	-9.378
23.042501	-1.425	-3.377	-44.411	85.438	-60.627	127.776	-2.596	-18.524
23.14225	-1.438	-10.54	-44.905	70.523	-59.091	110.859	-2.67	-27.785
23.242	-1.45	-18.058	-45.291	54.913	-59.356	97.228	-2.747	-37.198
23.34175	-1.441	-24.971	-45.763	40.139	-58.663	83.723	-2.819	-46.828
23.4415	-1.469	-32.489	-46.276	25.663	-59.265	67.972	-2.9	-56.552
23.54125	-1.475	-39.838	-46.972	12.131	-59.139	57.152	-2.965	-66.384
23.641	-1.499	-47.368	-47.327	-4.166	-58.815	40.808	-3.018	-76.457
23.74075	-1.509	-54.851	-48.588	-20.427	-61.62	18.925	-3.086	-86.432
23.8405	-1.527	-62.508	-49.23	-33.842	-60.858	15.965	-3.149	-96.618
23.94025	-1.549	-70.356	-50.565	-45.884	-61.192	7.926	-3.154	-106.824
24.039999	-1.581	-78.221	-50.149	-47.567	-58.307	-11.521	-3.178	-116.942
24.139749	-1.607	-85.998	-54.527	-59.158	-60.016	-30.494	-3.222	-126.739
24.239499	-1.618	-94.027	-54.424	-86.183	-60.676	-42.769	-3.19	-137.12
24.339249	-1.643	-101.959	-48.626	-107.147	-61.018	-48.278	-3.207	-146.784
24.438999	-1.664	-110.072	-54.08	-106.96	-60.731	-55.363	-3.161	-156.93
24.538751	-1.682	-118.031	-52.16	-120.136	-59.203	-64.613	-3.136	-166.425
24.638501	-1.695	-125.996	-55.099	-161.632	-63.827	-90.498	-3.072	-176.183
24.738251	-1.702	-134.241	-57.121	-121.856	-60.059	-90.285	-3.042	174.437
24.838001	-1.704	-142.176	-63.507	113.87	-65.772	-122.103	-2.98	165.212
24.937751	-1.713	-150.293	-62.986	-172.917	-65.267	-109.902	-2.925	156.127
25.0375	-1.713	-158.262	-58.529	-137.222	-62.152	-144.829	-2.855	147.156
25.13725	-1.715	-166.345	-58.698	88.17	-64.456	-177.328	-2.798	138.474
25.237	-1.699	-174.25	-55.514	116.223	-65.293	-155.851	-2.779	129.811
25.33675	-1.693	177.573	-65.232	-142.206	-63.844	-174.152	-2.722	121.36
25.4365	-1.685	169.579	-62.552	-35.504	-63.476	120.36	-2.689	113.087
25.53625	-1.685	161.724	-73.316	-173.727	-61.862	125.319	-2.642	104.692
25.636	-1.667	153.924	-64.101	-57.455	-64.505	174.145	-2.607	96.445
25.73575	-1.658	146.064	-59.171	60.289	-65.694	113.247	-2.606	88.309
25.8355	-1.646	138.416	-56.013	-29.471	-68.485	83.034	-2.578	80.212
25.935249	-1.624	130.743	-58.851	102.695	-62.026	71.704	-2.571	72.182
26.034999	-1.615	123.171	-68.618	41.885	-66.846	26.662	-2.577	64.311
26.134749	-1.585	115.757	-67.713	-154.204	-71.842	58.714	-2.58	56.375
26.234499	-1.568	108.327	-55.627	95.804	-70.035	27.25	-2.602	48.281
26.334251	-1.56	100.965	-55.513	-0.662	-67.643	27.32	-2.617	40.369
26.434001	-1.532	93.95	-55.889	5.196	-80.158	13.408	-2.663	32.286
26.533751	-1.521	86.873	-56.815	-101.899	-76.384	-51.541	-2.701	24.214
26.633501	-1.501	79.929	-79.885	-151.002	-88.342	-94.908	-2.734	16.091
26.733251	-1.48	72.964	-65.034	-37.819	-73.275	-70.911	-2.813	7.805
26.833	-1.452	66.253	-61.367	-148.973	-70.091	103.396	-2.883	-0.64
26.93275	-1.448	59.57	-57.486	14.666	-71.787	61.769	-2.954	-9.295
27.0325	-1.438	52.825	-59.39	-65.856	-66.893	43.949	-3.053	-18.035
27.13225	-1.403	46.387	-57.627	-14.143	-68.025	48.223	-3.153	-27.007
27.232	-1.396	40.057	-62.976	34.556	-76.398	53.711	-3.252	-36.119
27.33175	-1.375	33.466	-62.239	-46.058	-70.261	14.296	-3.358	-45.378
27.4315	-1.391	27.184	-62.203	145.626	-68.254	68.763	-3.498	-54.861
27.53125	-1.373	20.833	-57.218	38.498	-67.913	49.254	-3.638	-64.734
27.631	-1.37	14.545	-68.917	173.125	-62.873	43.542	-3.783	-74.854
27.730749	-1.376	8.194	-54.531	-43.074	-61.693	37.335	-3.933	-84.863
27.830499	-1.368	2.057	-54.469	36.35	-58.04	5.921	-4.091	-95.196
27.930249	-1.383	-4.152	-58.995	23.118	-58.618	-23.867	-4.226	-105.528
28.029999	-1.368	-10.24	-59.098	22.018	-56.83	-30.591	-4.339	-116.222
28.129749	-1.396	-16.424	-54.976	9.114	-56.273	-41.655	-4.493	-126.863
28.229501	-1.396	-22.608	-51.073	-31.161	-55.394	-55.227	-4.628	-137.889
28.329251	-1.43	-28.601	-57.916	-58.21	-54.294	-60.938	-4.78	-148.848
28.429001	-1.446	-34.397	-52.308	-98.298	-54.161	-71.647	-4.908	-159.896
28.528751	-1.449	-40.506	-50.482	-80.69	-53.347	-79.073	-5.078	-170.952
28.6285	-1.466	-46.529	-46.973	-67.534	-51.101	-89.061	-5.245	178.165
28.72825	-1.472	-52.559	-51.626	-85.417	-50.105	-104.593	-5.424	167.799
28.828	-1.473	-58.7	-46.914	-121.991	-48.853	-127.356	-5.554	157.967
28.92775	-1.509	-64.842	-45.554	-140.282	-48.992	-145.994	-5.62	148.532
29.0275	-1.507	-70.925	-47.447	-147.842	-48.737	-161.72	-5.636	139.522
29.12725	-1.55	-76.977	-46.086	-165.141	-48.723	178.112	-5.53	131.178
29.227	-1.576	-83.252	-47.23	168.604	-48.461	160.525	-5.265	122.589
29.32675	-1.59	-89.672	-47.584	125.391	-47.975	141.898	-4.909	113.431
29.4265	-1.629	-96.02	-48.862	117.445	-50.926	115.417	-4.517	103.754
29.526249	-1.651	-102.514	-59.397	110.206	-51.831	102.805	-4.232	93.806
29.625999	-1.689	-108.959	-52.549	89.672	-54.176	92.527	-3.944	83.524
29.725749	-1.717	-115.599	-52.513	91.533	-56.146	81.802	-3.795	73.796
29.825499	-1.743	-122.569	-53.797	95.478	-58	68.124	-3.63	64.281
29.925249	-1.782	-129.273	-56.917	44.472	-58.29	75.142	-3.521	54.879
30.025001	-1.821	-136.356	-57.38	109.674	-59.61	86.51	-3.408	46.202
30.124751	-1.849	-143.438	-57.423	15.583	-59.296	102.244	-3.341	37.495
30.224501	-1.894	-150.694	-53.815	63.771	-57.167	80.797	-3.26	29.298
30.324251	-1.908	-158.119	-51.493	64.35	-55.148	71.96	-3.185	21.106
30.424001	-1.946	-165.481	-51.998	68.008	-54.979	53.564	-3.139	13.05
30.52375	-1.978	-173.079	-52.256	55.305	-57.847	30.599	-3.077	5.318
30.6235	-2.006	179.278	-61.069	-21.682	-57.667	11.293	-3.035	-2.148
30.72325	-2.026	171.513	-58.985	98.881	-58.981	1.991	-3.003	-9.454
30.823	-2.051	163.529	-56.439	13.748	-61.806	-27.429	-2.93	-16.652
30.92275	-2.069	155.582	-56.589	146.114	-72.726	-68.742	-2.809	-23.757
31.0225	-2.095	147.463	-61.244	178.45	-64.812	105.577	-2.747	-31.018
31.12225	-2.115	139.231	-55.297	123.711	-69.112	129.327	-2.68	-38.392
31.222	-2.113	130.936	-72.924	95.26	-64.44	42.976	-2.636	-46.046
31.32175	-2.151	122.651	-58.988	-37.696	-62.373	-4.09	-2.609	-53.24
31.421499	-2.16	113.979	-65.629	158.59	-60.299	37.069	-2.599	-60.547
31.521249	-2.156	105.546	-55.176	42.616	-60.688	7.132	-2.603	-67.95
31.620999	-2.168	96.928	-59.863	-117.537	-63.804	-4.471	-2.618	-75.078
31.720749	-2.187	88.435	-59.316	47.759	-61.014	15.829	-2.614	-82.522
31.820501	-2.175	79.77	-55.287	-71.048	-60.617	6.607	-2.642	-90.044
31.920251	-2.157	71.276	-73.073	-38.71	-63.748	22.374	-2.68	-97.368
32.020001	-2.146	62.833	-56.764	5.82	-67.492	39.196	-2.742	-105.019
32.119751	-2.152	54.373	-58.101	-13.299	-62.258	4.619	-2.772	-112.489
32.219501	-2.099	45.963	-51.631	-1.509	-64.881	4.647	-2.853	-120.319
32.31925	-2.123	37.732	-57.016	7.152	-66.306	6.027	-2.912	-128.406
32.419	-2.092	29.291	-62.11	-23.232	-68.539	-74	-3.001	-136.49
32.51875	-2.067	21.496	-65.917	-117.476	-64.303	-25.812	-3.085	-144.786
32.6185	-2.042	13.764	-56.689	-11.867	-67.179	8.869	-3.151	-153.274
32.71825	-2.001	6.113	-55.734	-46.439	-67.351	-18.49	-3.248	-161.899
32.818	-1.964	-1.644	-56.63	21.857	-60.469	-32.648	-3.297	-171.061
32.91775	-1.94	-9.301	-59.973	-38.292	-63.482	-38.161	-3.41	179.656
33.0175	-1.921	-16.632	-56.829	-112.778	-60.037	-54.727	-3.49	170.395
33.11725	-1.874	-24.041	-51.963	-53.628	-61.451	-55.158	-3.548	160.753
33.216999	-1.843	-31.224	-58.818	-95.499	-60.921	-63.385	-3.611	150.954
33.316749	-1.83	-38.569	-57.569	-103.371	-58.362	-76.362	-3.69	140.97
33.416499	-1.834	-45.097	-61.609	-44.045	-59.056	-71.965	-3.754	130.998
33.516249	-1.777	-52.099	-62.44	-151.117	-59.572	-96.92	-3.788	120.773
33.615999	-1.765	-58.838	-56.531	-21.877	-59.376	-106.231	-3.773	110.415
33.715751	-1.755	-65.794	-71.425	-63.879	-56.343	-137.547	-3.797	100.046
33.815501	-1.731	-72.233	-52.776	-164.466	-56.146	-152.419	-3.788	89.828
33.915251	-1.73	-78.82	-51.125	-153.023	-57.923	-163.019	-3.761	79.521
34.015001	-1.701	-85.246	-56.806	-124.736	-57.842	178.116	-3.726	69.091
34.11475	-1.718	-91.588	-57.998	-157.484	-58	171.433	-3.66	59.023
34.2145	-1.691	-97.807	-58.799	166.214	-58.819	159.595	-3.627	49.008
34.31425	-1.704	-104.139	-52.437	142.547	-58.548	151.892	-3.551	39.147
34.413998	-1.698	-110.168	-56.615	148.852	-59.892	134.378	-3.478	29.254
34.513748	-1.714	-116.403	-56.992	160.842	-59.63	118.452	-3.383	19.861
34.613502	-1.713	-122.516	-59.351	160.193	-58.899	96.885	-3.296	10.541
34.713252	-1.74	-128.545	-54.963	120.269	-55.908	84.241	-3.206	1.181
34.813002	-1.773	-134.425	-50.792	125.399	-54.06	90.232	-3.079	-7.814
34.912752	-1.806	-140.412	-56.626	50.245	-53.646	79.8	-3.03	-16.577
35.012502	-1.874	-146.753	-50.222	83.491	-51.378	68.68	-2.956	-24.93
35.112251	-1.938	-152.925	-47.721	53.613	-48.643	50.134	-2.865	-33.291
35.212001	-2.039	-159.321	-45.211	49.631	-46.337	35.064	-2.752	-41.218
35.311751	-2.133	-165.646	-45.893	20.461	-45.246	21.066	-2.656	-49.096
35.411501	-2.289	-172.209	-43.035	9.742	-43.854	-0.705	-2.589	-56.901
35.511251	-2.487	-178.825	-43.821	-23.152	-42.438	-16.305	-2.535	-64.452
35.611001	-2.74	174.37	-42.845	-41.455	-41.49	-32.339	-2.484	-71.97
35.710751	-3.044	167.887	-39.279	-50.976	-40.289	-51.346	-2.418	-79.317
35.810501	-3.496	161.325	-38.95	-66.769	-38.923	-70.402	-2.429	-86.502
35.91025	-4.078	155.05	-37.507	-83.111	-38.055	-90.662	-2.386	-93.777
36.01	-4.847	149.784	-36.939	-112.142	-36.916	-112.133	-2.361	-101.088
36.10975	-5.703	146.639	-36.503	-132.424	-36.111	-137.406	-2.359	-108.097
36.2095	-6.431	146.05	-35.935	-162.402	-35.632	-161.596	-2.378	-115.099
36.30925	-6.712	147.591	-36.339	173.545	-35.743	172.676	-2.39	-121.413
36.409	-6.522	148.135	-36.629	144.043	-36.078	143.556	-2.407	-128.089
36.50875	-6.022	146.826	-36.992	113.474	-37.141	117.889	-2.446	-134.809
36.6085	-5.473	143.476	-37.042	93.258	-38.247	95.006	-2.479	-141.233
36.70825	-4.98	138.204	-39.999	71.43	-39.568	70.773	-2.555	-147.333
36.807999	-4.61	132.099	-42.175	44.841	-41.276	45.251	-2.587	-153.264
36.907749	-4.295	125.287	-42.572	13.955	-43.457	22.806	-2.586	-160.019
37.007499	-4.108	118.171	-44.498	-10.784	-45.505	0.402	-2.612	-166.42
37.107249	-3.951	110.93	-46.191	-7.149	-47.364	-11.288	-2.676	-172.292
37.206999	-3.874	103.147	-50.471	-49.51	-48.737	-36.015	-2.739	-178.428
37.306749	-3.79	95.243	-54.65	-36.571	-50.414	-41.752	-2.766	174.932
37.406499	-3.823	86.949	-50.494	-46.749	-49.441	-42.639	-2.905	168.694
37.506249	-3.816	78.372	-46.841	-38.58	-48.679	-53.472	-3.044	162.515
37.605999	-3.842	69.754	-45.569	-61.247	-47.589	-65.909	-3.162	155.79
37.705748	-3.899	60.676	-46.958	-62.383	-46.519	-76.792	-3.275	149.421
37.805498	-3.925	51.282	-43.789	-92.123	-44.937	-93.28	-3.412	142.546
37.905248	-4.009	41.733	-43.579	-111.47	-42.813	-102.983	-3.622	134.801
38.004998	-4.061	32.014	-41.975	-121.928	-41.808	-120.536	-3.928	127.703
38.104748	-4.139	21.837	-39.658	-137.223	-40.378	-138.347	-4.259	119.731
38.204502	-4.176	11.881	-38.877	-154.514	-39.193	-151.545	-4.802	111.537
38.304252	-4.218	1.616	-37.717	-167.524	-38.298	-167.471	-5.429	104.026
38.404002	-4.256	-8.919	-37.32	176.181	-37.071	179.534	-6.346	96.74
38.503752	-4.24	-19.369	-36.729	163.634	-35.73	165.301	-7.318	91.961
38.603502	-4.241	-30.019	-34.993	154.272	-34.714	149.321	-8.311	88.65
38.703251	-4.245	-40.347	-33.921	132.898	-33.787	132.511	-9.114	87.498
38.803001	-4.25	-50.94	-32.715	111.889	-33.046	112.977	-9.522	87.988
38.902751	-4.246	-61.054	-32.43	94.95	-32.469	94.531	-9.454	88.16
39.002501	-4.221	-71.263	-32.034	76.821	-32.247	75.812	-9.029	86.929
39.102251	-4.192	-81.147	-31.922	56.51	-32.39	57.741	-8.452	83.355
39.202001	-4.131	-91.085	-32.405	37.571	-32.614	40.436	-7.868	76.942
39.301751	-4.108	-100.786	-32.813	22.573	-32.906	24.057	-7.328	69.045
39.401501	-4.054	-110.156	-33.541	8.593	-33.67	8.86	-6.954	60.224
39.501251	-4.033	-119.422	-34.595	-5.507	-34.465	-4.976	-6.636	50.645
39.601	-4.033	-128.59	-34.873	-18.979	-35.146	-17.433	-6.392	40.187
39.70075	-4.034	-137.521	-36.043	-32.336	-35.928	-30.604	-6.269	29.949
39.8005	-4.084	-145.743	-36.691	-40.976	-36.458	-41.089	-6.113	19.512
39.90025	-4.151	-154.387	-36.364	-53.232	-37.234	-54.638	-5.924	8.855
40	-4.22	-162.474	-37.993	-62.491	-37.938	-63.037	-5.799	-2.13
